Folder: TGA/tga_m0

File: tga.csv
Time,Temp,DTA,m
0,24.13,-0.5,4.38
11.5,25.09,-0.4,4.37
23,27.66,-0.13,4.37
34.5,30.58,0.13,4.37
46,32.93,0.34,4.37
57.5,35.01,0.53,4.37
69,37.6,0.66,4.37
80.5,39.7,0.75,4.37
92,41.97,0.82,4.37
103.5,43.88,0.88,4.37
115,46.17,0.93,4.37
126.5,48.24,0.97,4.37
138,50.23,1,4.37
149.5,52.16,1.01,4.37
161,54.26,1.02,4.37
172.5,56.36,1.03,4.37
184,58.18,1.03,4.37
195.5,60.19,1.02,4.37
207,62.16,1,4.36
218.5,64.35,0.97,4.36
230,65.81,0.93,4.36
241.5,68.17,0.89,4.36
253,70.09,0.86,4.36
264.5,72.22,0.85,4.36
276,73.75,0.86,4.36
287.5,76.02,0.89,4.36
299,77.96,0.92,4.36
310.5,79.98,0.95,4.36
322,81.63,0.97,4.36
333.5,83.72,0.99,4.35
345,85.72,1.01,4.35
356.5,87.66,1.02,4.35
368,89.38,1.03,4.35
379.5,91.32,1.03,4.35
391,93.31,1.02,4.35
402.5,95.04,1.03,4.35
414,97.06,1.02,4.35
425.5,98.78,1.03,4.34
437,101,1.03,4.34
448.5,102.62,1.02,4.34
460,104.61,1.01,4.34
471.5,106.36,0.99,4.34
483,108.47,0.98,4.34
494.5,110.09,0.97,4.34
506,112.04,0.97,4.34
517.5,113.72,0.95,4.34
529,115.77,0.94,4.33
540.5,117.37,0.94,4.33
552,119.28,0.95,4.33
563.5,120.99,0.96,4.33
575,123.17,0.97,4.33
586.5,124.89,1,4.33
598,126.84,1.02,4.33
609.5,128.69,1.02,4.33
621,130.77,1.02,4.33
632.5,132.49,1.03,4.32
644,134.39,1.03,4.32
655.5,136.32,1.03,4.32
667,138.35,1.02,4.32
678.5,140.15,1.02,4.32
690,142.11,1,4.32
701.5,143.97,0.99,4.32
713,146.06,0.98,4.32
724.5,147.77,0.96,4.32
736,149.68,0.94,4.31
747.5,151.57,0.89,4.31
759,153.51,0.85,4.31
770.5,155.28,0.82,4.31
782,157.25,0.8,4.31
793.5,159.11,0.78,4.31
805,161.14,0.75,4.31
816.5,162.81,0.73,4.31
828,164.83,0.72,4.31
839.5,166.77,0.71,4.31
851,168.88,0.69,4.3
862.5,170.55,0.66,4.3
874,172.54,0.63,4.3
885.5,174.41,0.58,4.3
897,176.5,0.55,4.3
908.5,178.2,0.51,4.3
920,180.24,0.48,4.3
931.5,182.22,0.44,4.3
943,184.29,0.39,4.3
954.5,185.94,0.33,4.3
966,187.99,0.28,4.3
977.5,189.92,0.23,4.29
989,191.92,0.19,4.29
1000.5,193.68,0.14,4.29
1012,195.65,0.07,4.29
1023.5,197.64,0,4.29
1035,199.62,-0.05,4.29
1046.5,201.38,-0.12,4.29
1058,203.34,-0.2,4.28
1069.5,205.32,-0.27,4.28
1081,207.31,-0.33,4.28
1092.5,209.01,-0.39,4.28
1104,211.1,-0.43,4.28
1115.5,213.09,-0.48,4.27
1127,215.06,-0.55,4.27
1138.5,216.81,-0.61,4.27
1150,218.9,-0.67,4.27
1161.5,220.94,-0.75,4.27
1173,222.86,-0.83,4.26
1184.5,224.57,-0.93,4.26
1196,226.65,-1.02,4.26
1207.5,228.61,-1.1,4.25
1219,230.61,-1.2,4.25
1230.5,232.38,-1.29,4.25
1242,234.46,-1.36,4.25
1253.5,236.55,-1.43,4.24
1265,238.49,-1.51,4.24
1276.5,240.32,-1.62,4.24
1288,242.32,-1.75,4.24
1299.5,244.36,-1.87,4.23
1311,246.3,-1.98,4.23
1322.5,248.07,-2.08,4.22
1334,250.08,-2.18,4.22
1345.5,252.17,-2.29,4.22
1357,254.18,-2.41,4.21
1368.5,255.82,-2.53,4.21
1380,257.8,-2.68,4.21
1391.5,259.78,-2.82,4.2
1403,261.66,-2.96,4.2
1414.5,263.41,-3.09,4.19
1426,265.4,-3.21,4.19
1437.5,267.37,-3.33,4.18
1449,269.18,-3.47,4.18
1460.5,271.01,-3.59,4.17
1472,272.91,-3.69,4.17
1483.5,274.94,-3.78,4.16
1495,276.78,-3.84,4.16
1506.5,278.63,-3.91,4.15
1518,280.62,-3.98,4.15
1529.5,282.87,-4.05,4.14
1541,284.6,-4.13,4.13
1552.5,286.7,-4.23,4.12
1564,288.55,-4.32,4.12
1575.5,290.8,-4.47,4.11
1587,292.44,-4.67,4.1
1598.5,294.47,-4.88,4.09
1610,296.18,-5.07,4.08
1621.5,298.41,-5.22,4.07
1633,300.13,-5.32,4.06
1644.5,302.24,-5.39,4.04
1656,304.11,-5.47,4.03
1667.5,306.31,-5.58,4.02
1679,308.04,-5.69,4
1690.5,310.13,-5.8,3.99
1702,311.85,-5.93,3.98
1713.5,314.07,-6.08,3.96
1725,315.8,-6.2,3.95
1736.5,317.79,-6.33,3.94
1748,319.63,-6.44,3.92
1759.5,321.74,-6.54,3.91
1771,323.49,-6.64,3.9
1782.5,325.42,-6.72,3.88
1794,327.32,-6.8,3.87
1805.5,329.45,-6.89,3.86
1817,331.26,-7.02,3.84
1828.5,333.26,-7.12,3.83
1840,335.12,-7.21,3.82
1851.5,337.3,-7.3,3.8
1863,339.09,-7.41,3.79
1874.5,341,-7.6,3.78
1886,342.88,-7.76,3.76
1897.5,344.92,-7.96,3.75
1909,346.67,-8.13,3.74
1920.5,348.6,-8.29,3.72
1932,350.42,-8.42,3.71
1943.5,352.41,-8.53,3.7
1955,354.29,-8.67,3.69
1966.5,356.21,-8.83,3.67
1978,358.15,-8.94,3.66
1989.5,360.17,-9.1,3.65
2001,362.01,-9.24,3.63
2012.5,363.83,-9.41,3.62
2024,365.74,-9.58,3.6
2035.5,367.81,-9.75,3.59
2047,369.74,-9.85,3.57
2058.5,371.62,-9.9,3.56
2070,373.71,-10.01,3.54
2081.5,375.64,-10.22,3.52
2093,377.69,-10.43,3.51
2104.5,379.39,-10.68,3.49
2116,381.54,-10.91,3.47
2127.5,383.42,-11.13,3.45
2139,385.45,-11.35,3.43
2150.5,387.22,-11.56,3.42
2162,389.31,-11.76,3.4
2173.5,391.19,-11.99,3.38
2185,393.11,-12.25,3.36
2196.5,394.83,-12.51,3.34
2208,396.78,-12.74,3.32
2219.5,398.78,-12.91,3.3
2231,400.63,-13.06,3.28
2242.5,402.5,-13.2,3.26
2254,404.48,-13.36,3.24
2265.5,406.46,-13.58,3.21
2277,408.18,-13.82,3.19
2288.5,410.16,-14.1,3.17
2300,411.86,-14.35,3.14
2311.5,414.06,-14.52,3.11
2323,415.81,-14.65,3.09
2334.5,417.82,-14.74,3.06
2346,419.71,-14.82,3.03
2357.5,421.82,-14.95,3
2369,423.55,-15.19,2.97
2380.5,425.47,-15.43,2.93
2392,427.34,-15.61,2.9
2403.5,429.46,-15.72,2.86
2415,431.28,-15.81,2.83
2426.5,433.15,-16.01,2.79
2438,435.01,-16.26,2.75
2449.5,436.94,-16.46,2.72
2461,438.96,-16.57,2.68
2472.5,440.72,-16.66,2.65
2484,442.87,-16.78,2.62
2495.5,444.74,-16.97,2.58
2507,446.62,-17.27,2.55
2518.5,448.29,-17.52,2.52
2530,450.39,-17.61,2.49
2541.5,452.33,-17.7,2.45
2553,454.12,-17.88,2.42
2564.5,455.95,-18.01,2.4
2576,457.84,-18.14,2.37
2587.5,459.88,-18.26,2.34
2599,461.54,-18.45,2.31
2610.5,463.41,-18.74,2.28
2622,465.22,-18.87,2.25
2633.5,467.32,-18.92,2.23
2645,469.1,-18.89,2.2
2656.5,471.08,-18.91,2.17
2668,473.16,-19.03,2.15
2679.5,474.95,-19.17,2.13
2691,476.85,-19.31,2.1
2702.5,478.71,-19.36,2.08
2714,480.95,-19.44,2.06
2725.5,482.9,-19.56,2.04
2737,484.88,-19.75,2.02
2748.5,486.66,-19.98,2
2760,488.67,-20.15,1.98
2771.5,490.61,-20.35,1.96
2783,492.34,-20.57,1.94
2794.5,494.37,-20.75,1.93
2806,496.14,-20.91,1.91
2817.5,498.32,-20.99,1.9
2829,500.09,-21.13,1.88
2840.5,502.09,-21.32,1.87
2852,503.93,-21.48,1.85
2863.5,506.08,-21.57,1.84
2875,507.9,-21.64,1.83
2886.5,509.66,-21.81,1.82
2898,511.76,-22.05,1.81
2909.5,513.63,-22.31,1.8
2921,515.76,-22.47,1.79
2932.5,517.39,-22.58,1.78
2944,519.35,-22.74,1.77
2955.5,521.37,-22.87,1.76
2967,523.17,-22.94,1.75
2978.5,525.25,-23.13,1.74
2990,526.97,-23.34,1.73
3001.5,529.17,-23.49,1.72
3013,530.94,-23.58,1.71
3024.5,532.83,-23.8,1.7
3036,534.71,-24,1.7
3047.5,536.65,-24.12,1.68
3059,538.64,-24.27,1.68
3070.5,540.4,-24.43,1.67
3082,542.48,-24.57,1.66
3093.5,544.36,-24.74,1.66
3105,546.26,-24.86,1.65
3116.5,548.13,-24.96,1.64
3128,550,-25.14,1.63
3139.5,552.1,-25.33,1.63
3151,553.77,-25.56,1.62
3162.5,555.67,-25.83,1.61
3174,557.49,-25.97,1.6
3185.5,559.44,-26.07,1.6
3197,561.35,-26.15,1.59
3208.5,563.08,-26.26,1.58
3220,565.22,-26.27,1.58
3231.5,567.05,-26.43,1.57
3243,568.97,-26.6,1.57
3254.5,570.81,-26.71,1.56
3266,572.63,-26.86,1.55
3277.5,574.87,-26.99,1.55
3289,576.67,-27.06,1.54
3300.5,578.6,-27.17,1.54
3312,580.51,-27.36,1.53
3323.5,582.28,-27.57,1.53
3335,584.32,-27.75,1.52
3346.5,586.13,-27.82,1.52
3358,588.13,-27.93,1.51
3369.5,590.03,-28.06,1.51
3381,591.7,-28.22,1.51
3392.5,593.75,-28.39,1.5
3404,595.54,-28.51,1.5
3415.5,597.53,-28.66,1.5
3427,599.32,-28.81,1.49
3438.5,600.95,-28.85,1.49
3443.8,601.93,-28.88,1.49